Folder: rsaxs/inst/extdata

Note: README.md
# rsaxs
R package for Small Angle X-ray Scattering experimental data analysis

File: LaB6_XRD_8keV_peak_position.dat
d_spacing	theta2
4.15785	21.353
2.93927	30.386
2.39986 37.444
2.07803	43.516
1.85865	48.986
1.69690	53.994
1.46974	63.216
1.38538	67.562
1.31438	71.755
1.25332	75.847
1.20003	79.867
1.15290	83.847
1.11100	87.790